

[LC Chromatogram(Detector A-Ch1)]
Interval(msec)	500
# of Points	1201
Start Time(min)	0.000
End Time(min)	10.000
Intensity Units	mV
Intensity Multiplier	0.001
Wavelength(nm)	260nm
R.Time (min)	Intensity
0.00000	-12
0.00833	-12
0.01667	-6
0.02500	1
0.03333	2
0.04167	2
0.05000	2
0.05833	1
0.06667	1
0.07500	2
0.08333	3
0.09167	3
0.10000	3
0.10833	3
0.11667	2
0.12500	2
0.13333	1
0.14167	0
0.15000	0
0.15833	-1
0.16667	-1
0.17500	0
0.18333	0
0.19167	0
0.20000	0
0.20833	-0
0.21667	-0
0.22500	-1
0.23333	-2
0.24167	-3
0.25000	-3
0.25833	-4
0.26667	-4
0.27500	-4
0.28333	-5
0.29167	-5
0.30000	-6
0.30833	-6
0.31667	-6
0.32500	-6
0.33333	-7
0.34167	-7
0.35000	-6
0.35833	-6
0.36667	-6
0.37500	-5
0.38333	-4
0.39167	-5
0.40000	-5
0.40833	-5
0.41667	-5
0.42500	-6
0.43333	-5
0.44167	-4
0.45000	-4
0.45833	-4
0.46667	-5
0.47500	-5
0.48333	-5
0.49167	-5
0.50000	-5
0.50833	-6
0.51667	-6
0.52500	-7
0.53333	-8
0.54167	-8
0.55000	-9
0.55833	-9
0.56667	-9
0.57500	-9
0.58333	-9
0.59167	-8
0.60000	-8
0.60833	-8
0.61667	-8
0.62500	-8
0.63333	-9
0.64167	-9
0.65000	-10
0.65833	-10
0.66667	-10
0.67500	-11
0.68333	-11
0.69167	-11
0.70000	-10
0.70833	-10
0.71667	-10
0.72500	-10
0.73333	-11
0.74167	-11
0.75000	-11
0.75833	-11
0.76667	-12
0.77500	-12
0.78333	-12
0.79167	-12
0.80000	-12
0.80833	-11
0.81667	-11
0.82500	-11
0.83333	-11
0.84167	-11
0.85000	-10
0.85833	-11
0.86667	-10
0.87500	-10
0.88333	-10
0.89167	-10
0.90000	-11
0.90833	-11
0.91667	-10
0.92500	-9
0.93333	-9
0.94167	-8
0.95000	-7
0.95833	-7
0.96667	-5
0.97500	-3
0.98333	-1
0.99167	2
1.00000	7
1.00833	11
1.01667	18
1.02500	27
1.03333	39
1.04167	53
1.05000	71
1.05833	92
1.06667	119
1.07500	151
1.08333	190
1.09167	239
1.10000	299
1.10833	371
1.11667	458
1.12500	562
1.13333	684
1.14167	825
1.15000	987
1.15833	1170
1.16667	1376
1.17500	1606
1.18333	1858
1.19167	2131
1.20000	2421
1.20833	2725
1.21667	3039
1.22500	3359
1.23333	3677
1.24167	3989
1.25000	4283
1.25833	4557
1.26667	4804
1.27500	5019
1.28333	5198
1.29167	5335
1.30000	5427
1.30833	5472
1.31667	5470
1.32500	5423
1.33333	5333
1.34167	5200
1.35000	5031
1.35833	4831
1.36667	4602
1.37500	4351
1.38333	4083
1.39167	3802
1.40000	3517
1.40833	3232
1.41667	2949
1.42500	2672
1.43333	2404
1.44167	2148
1.45000	1909
1.45833	1688
1.46667	1484
1.47500	1297
1.48333	1126
1.49167	973
1.50000	836
1.50833	716
1.51667	610
1.52500	517
1.53333	435
1.54167	364
1.55000	304
1.55833	253
1.56667	211
1.57500	174
1.58333	144
1.59167	119
1.60000	98
1.60833	79
1.61667	63
1.62500	51
1.63333	42
1.64167	33
1.65000	25
1.65833	19
1.66667	14
1.67500	9
1.68333	6
1.69167	3
1.70000	1
1.70833	-1
1.71667	-4
1.72500	-5
1.73333	-6
1.74167	-7
1.75000	-8
1.75833	-8
1.76667	-8
1.77500	-9
1.78333	-9
1.79167	-10
1.80000	-10
1.80833	-10
1.81667	-11
1.82500	-12
1.83333	-13
1.84167	-12
1.85000	-12
1.85833	-12
1.86667	-13
1.87500	-13
1.88333	-14
1.89167	-14
1.90000	-14
1.90833	-13
1.91667	-14
1.92500	-15
1.93333	-16
1.94167	-16
1.95000	-16
1.95833	-17
1.96667	-17
1.97500	-18
1.98333	-19
1.99167	-19
2.00000	-19
2.00833	-19
2.01667	-18
2.02500	-18
2.03333	-17
2.04167	-18
2.05000	-18
2.05833	-19
2.06667	-19
2.07500	-19
2.08333	-20
2.09167	-20
2.10000	-21
2.10833	-22
2.11667	-22
2.12500	-21
2.13333	-21
2.14167	-21
2.15000	-21
2.15833	-22
2.16667	-21
2.17500	-21
2.18333	-21
2.19167	-22
2.20000	-23
2.20833	-23
2.21667	-22
2.22500	-22
2.23333	-22
2.24167	-22
2.25000	-23
2.25833	-24
2.26667	-24
2.27500	-24
2.28333	-25
2.29167	-25
2.30000	-25
2.30833	-26
2.31667	-26
2.32500	-25
2.33333	-25
2.34167	-25
2.35000	-26
2.35833	-26
2.36667	-26
2.37500	-27
2.38333	-28
2.39167	-28
2.40000	-27
2.40833	-26
2.41667	-25
2.42500	-25
2.43333	-26
2.44167	-26
2.45000	-26
2.45833	-26
2.46667	-25
2.47500	-25
2.48333	-25
2.49167	-24
2.50000	-23
2.50833	-22
2.51667	-21
2.52500	-19
2.53333	-18
2.54167	-16
2.55000	-14
2.55833	-12
2.56667	-9
2.57500	-7
2.58333	-5
2.59167	0
2.60000	7
2.60833	13
2.61667	22
2.62500	31
2.63333	40
2.64167	49
2.65000	60
2.65833	71
2.66667	83
2.67500	95
2.68333	108
2.69167	123
2.70000	137
2.70833	150
2.71667	164
2.72500	178
2.73333	191
2.74167	205
2.75000	218
2.75833	229
2.76667	240
2.77500	251
2.78333	261
2.79167	269
2.80000	275
2.80833	281
2.81667	286
2.82500	290
2.83333	292
2.84167	294
2.85000	295
2.85833	293
2.86667	291
2.87500	288
2.88333	283
2.89167	278
2.90000	272
2.90833	267
2.91667	261
2.92500	254
2.93333	247
2.94167	241
2.95000	233
2.95833	225
2.96667	218
2.97500	211
2.98333	204
2.99167	198
3.00000	191
3.00833	185
3.01667	179
3.02500	173
3.03333	168
3.04167	162
3.05000	156
3.05833	150
3.06667	144
3.07500	140
3.08333	134
3.09167	128
3.10000	123
3.10833	119
3.11667	116
3.12500	114
3.13333	113
3.14167	111
3.15000	108
3.15833	106
3.16667	103
3.17500	102
3.18333	101
3.19167	100
3.20000	98
3.20833	97
3.21667	95
3.22500	92
3.23333	88
3.24167	84
3.25000	78
3.25833	72
3.26667	66
3.27500	59
3.28333	53
3.29167	48
3.30000	48
3.30833	54
3.31667	71
3.32500	101
3.33333	145
3.34167	200
3.35000	259
3.35833	317
3.36667	381
3.37500	470
3.38333	618
3.39167	872
3.40000	1285
3.40833	1922
3.41667	2858
3.42500	4159
3.43333	5841
3.44167	7822
3.45000	9932
3.45833	11954
3.46667	13690
3.47500	15000
3.48333	15829
3.49167	16193
3.50000	16156
3.50833	15806
3.51667	15230
3.52500	14505
3.53333	13691
3.54167	12832
3.55000	11963
3.55833	11105
3.56667	10275
3.57500	9483
3.58333	8737
3.59167	8042
3.60000	7400
3.60833	6811
3.61667	6272
3.62500	5780
3.63333	5334
3.64167	4929
3.65000	4561
3.65833	4228
3.66667	3926
3.67500	3655
3.68333	3416
3.69167	3208
3.70000	3034
3.70833	2909
3.71667	2861
3.72500	2931
3.73333	3185
3.74167	3694
3.75000	4520
3.75833	5688
3.76667	7159
3.77500	8820
3.78333	10513
3.79167	12078
3.80000	13395
3.80833	14406
3.81667	15119
3.82500	15584
3.83333	15879
3.84167	16110
3.85000	16418
3.85833	16976
3.86667	17919
3.87500	19237
3.88333	20703
3.89167	21953
3.90000	22652
3.90833	22619
3.91667	21876
3.92500	20595
3.93333	19006
3.94167	17324
3.95000	15706
3.95833	14240
3.96667	12958
3.97500	11855
3.98333	10912
3.99167	10118
4.00000	9480
4.00833	9017
4.01667	8749
4.02500	8676
4.03333	8767
4.04167	8961
4.05000	9190
4.05833	9424
4.06667	9743
4.07500	10511
4.08333	12837
4.09167	19676
4.10000	37999
4.10833	81689
4.11667	172976
4.12500	338581
4.13333	598767
4.14167	953452
4.15000	1374144
4.15833	1809061
4.16667	2202222
4.17500	2512618
4.18333	2720930
4.19167	2824122
4.20000	2828338
4.20833	2744991
4.21667	2590054
4.22500	2382735
4.23333	2143261
4.24167	1890368
4.25000	1639476
4.25833	1401937
4.26667	1185071
4.27500	992727
4.28333	826066
4.29167	684363
4.30000	565703
4.30833	467541
4.31667	387101
4.32500	321647
4.33333	268643
4.34167	225838
4.35000	191301
4.35833	163407
4.36667	140815
4.37500	122440
4.38333	107411
4.39167	95035
4.40000	84765
4.40833	76170
4.41667	68913
4.42500	62733
4.43333	57423
4.44167	52822
4.45000	48804
4.45833	45269
4.46667	42138
4.47500	39348
4.48333	36847
4.49167	34596
4.50000	32559
4.50833	30708
4.51667	29021
4.52500	27478
4.53333	26062
4.54167	24758
4.55000	23555
4.55833	22443
4.56667	21411
4.57500	20453
4.58333	19561
4.59167	18731
4.60000	17954
4.60833	17227
4.61667	16544
4.62500	15902
4.63333	15298
4.64167	14730
4.65000	14194
4.65833	13687
4.66667	13208
4.67500	12757
4.68333	12329
4.69167	11925
4.70000	11543
4.70833	11181
4.71667	10838
4.72500	10512
4.73333	10200
4.74167	9902
4.75000	9619
4.75833	9346
4.76667	9085
4.77500	8833
4.78333	8590
4.79167	8355
4.80000	8130
4.80833	7912
4.81667	7701
4.82500	7498
4.83333	7303
4.84167	7114
4.85000	6932
4.85833	6755
4.86667	6586
4.87500	6425
4.88333	6272
4.89167	6126
4.90000	5984
4.90833	5847
4.91667	5714
4.92500	5586
4.93333	5463
4.94167	5344
4.95000	5230
4.95833	5119
4.96667	5012
4.97500	4910
4.98333	4812
4.99167	4718
5.00000	4625
5.00833	4535
5.01667	4448
5.02500	4364
5.03333	4282
5.04167	4203
5.05000	4126
5.05833	4050
5.06667	3977
5.07500	3905
5.08333	3835
5.09167	3767
5.10000	3700
5.10833	3636
5.11667	3573
5.12500	3513
5.13333	3454
5.14167	3395
5.15000	3338
5.15833	3283
5.16667	3230
5.17500	3180
5.18333	3131
5.19167	3084
5.20000	3037
5.20833	2991
5.21667	2946
5.22500	2902
5.23333	2859
5.24167	2817
5.25000	2777
5.25833	2738
5.26667	2702
5.27500	2669
5.28333	2638
5.29167	2615
5.30000	2598
5.30833	2590
5.31667	2593
5.32500	2610
5.33333	2645
5.34167	2702
5.35000	2790
5.35833	2919
5.36667	3113
5.37500	3412
5.38333	3880
5.39167	4626
5.40000	5816
5.40833	7695
5.41667	10603
5.42500	14966
5.43333	21290
5.44167	30098
5.45000	41850
5.45833	56834
5.46667	75042
5.47500	96079
5.48333	119126
5.49167	142973
5.50000	166134
5.50833	187029
5.51667	204194
5.52500	216461
5.53333	223104
5.54167	223894
5.55000	219091
5.55833	209367
5.56667	195679
5.57500	179143
5.58333	160892
5.59167	141978
5.60000	123290
5.60833	105522
5.61667	89155
5.62500	74479
5.63333	61619
5.64167	50572
5.65000	41246
5.65833	33489
5.66667	27120
5.67500	21947
5.68333	17787
5.69167	14468
5.70000	11837
5.70833	9763
5.71667	8132
5.72500	6855
5.73333	5855
5.74167	5072
5.75000	4455
5.75833	3968
5.76667	3583
5.77500	3276
5.78333	3026
5.79167	2822
5.80000	2652
5.80833	2510
5.81667	2386
5.82500	2279
5.83333	2184
5.84167	2099
5.85000	2023
5.85833	1952
5.86667	1887
5.87500	1828
5.88333	1774
5.89167	1723
5.90000	1676
5.90833	1633
5.91667	1597
5.92500	1563
5.93333	1531
5.94167	1500
5.95000	1471
5.95833	1445
5.96667	1421
5.97500	1399
5.98333	1377
5.99167	1356
6.00000	1336
6.00833	1318
6.01667	1300
6.02500	1283
6.03333	1266
6.04167	1250
6.05000	1234
6.05833	1217
6.06667	1201
6.07500	1185
6.08333	1170
6.09167	1156
6.10000	1142
6.10833	1127
6.11667	1112
6.12500	1098
6.13333	1085
6.14167	1072
6.15000	1060
6.15833	1048
6.16667	1037
6.17500	1027
6.18333	1017
6.19167	1008
6.20000	998
6.20833	988
6.21667	979
6.22500	971
6.23333	963
6.24167	956
6.25000	948
6.25833	941
6.26667	936
6.27500	931
6.28333	926
6.29167	921
6.30000	917
6.30833	913
6.31667	911
6.32500	908
6.33333	907
6.34167	907
6.35000	907
6.35833	907
6.36667	909
6.37500	911
6.38333	914
6.39167	918
6.40000	923
6.40833	929
6.41667	933
6.42500	939
6.43333	945
6.44167	952
6.45000	958
6.45833	964
6.46667	969
6.47500	972
6.48333	977
6.49167	981
6.50000	984
6.50833	987
6.51667	990
6.52500	991
6.53333	990
6.54167	988
6.55000	986
6.55833	983
6.56667	978
6.57500	971
6.58333	964
6.59167	957
6.60000	949
6.60833	940
6.61667	929
6.62500	917
6.63333	905
6.64167	894
6.65000	883
6.65833	870
6.66667	858
6.67500	845
6.68333	833
6.69167	822
6.70000	811
6.70833	801
6.71667	790
6.72500	780
6.73333	770
6.74167	761
6.75000	752
6.75833	746
6.76667	739
6.77500	733
6.78333	726
6.79167	718
6.80000	709
6.80833	700
6.81667	691
6.82500	681
6.83333	670
6.84167	658
6.85000	646
6.85833	634
6.86667	620
6.87500	606
6.88333	592
6.89167	580
6.90000	568
6.90833	557
6.91667	545
6.92500	534
6.93333	525
6.94167	516
6.95000	508
6.95833	501
6.96667	494
6.97500	487
6.98333	480
6.99167	474
7.00000	470
7.00833	467
7.01667	463
7.02500	457
7.03333	453
7.04167	448
7.05000	445
7.05833	441
7.06667	438
7.07500	434
7.08333	432
7.09167	430
7.10000	427
7.10833	423
7.11667	421
7.12500	419
7.13333	416
7.14167	413
7.15000	409
7.15833	406
7.16667	402
7.17500	399
7.18333	397
7.19167	395
7.20000	393
7.20833	391
7.21667	388
7.22500	385
7.23333	383
7.24167	380
7.25000	376
7.25833	374
7.26667	371
7.27500	369
7.28333	367
7.29167	365
7.30000	363
7.30833	361
7.31667	359
7.32500	357
7.33333	354
7.34167	353
7.35000	351
7.35833	350
7.36667	348
7.37500	346
7.38333	343
7.39167	340
7.40000	338
7.40833	336
7.41667	333
7.42500	330
7.43333	329
7.44167	327
7.45000	325
7.45833	323
7.46667	321
7.47500	319
7.48333	317
7.49167	315
7.50000	312
7.50833	309
7.51667	307
7.52500	306
7.53333	305
7.54167	304
7.55000	302
7.55833	301
7.56667	299
7.57500	298
7.58333	296
7.59167	294
7.60000	291
7.60833	288
7.61667	286
7.62500	285
7.63333	284
7.64167	282
7.65000	281
7.65833	280
7.66667	279
7.67500	278
7.68333	277
7.69167	276
7.70000	275
7.70833	274
7.71667	274
7.72500	272
7.73333	270
7.74167	268
7.75000	266
7.75833	264
7.76667	261
7.77500	260
7.78333	260
7.79167	261
7.80000	260
7.80833	257
7.81667	255
7.82500	253
7.83333	251
7.84167	249
7.85000	247
7.85833	246
7.86667	244
7.87500	242
7.88333	241
7.89167	240
7.90000	239
7.90833	238
7.91667	235
7.92500	233
7.93333	232
7.94167	232
7.95000	231
7.95833	229
7.96667	228
7.97500	226
7.98333	225
7.99167	224
8.00000	223
8.00833	221
8.01667	219
8.02500	217
8.03333	216
8.04167	214
8.05000	213
8.05833	212
8.06667	212
8.07500	211
8.08333	209
8.09167	207
8.10000	206
8.10833	206
8.11667	206
8.12500	205
8.13333	204
8.14167	203
8.15000	202
8.15833	201
8.16667	201
8.17500	200
8.18333	199
8.19167	198
8.20000	196
8.20833	194
8.21667	193
8.22500	193
8.23333	192
8.24167	191
8.25000	190
8.25833	188
8.26667	186
8.27500	186
8.28333	185
8.29167	184
8.30000	183
8.30833	181
8.31667	180
8.32500	178
8.33333	177
8.34167	175
8.35000	174
8.35833	174
8.36667	173
8.37500	172
8.38333	171
8.39167	169
8.40000	168
8.40833	168
8.41667	168
8.42500	167
8.43333	166
8.44167	165
8.45000	164
8.45833	163
8.46667	163
8.47500	162
8.48333	162
8.49167	160
8.50000	160
8.50833	159
8.51667	159
8.52500	158
8.53333	158
8.54167	157
8.55000	155
8.55833	154
8.56667	152
8.57500	151
8.58333	151
8.59167	151
8.60000	151
8.60833	149
8.61667	148
8.62500	147
8.63333	147
8.64167	147
8.65000	147
8.65833	146
8.66667	145
8.67500	144
8.68333	143
8.69167	142
8.70000	141
8.70833	141
8.71667	141
8.72500	141
8.73333	140
8.74167	140
8.75000	139
8.75833	138
8.76667	137
8.77500	136
8.78333	134
8.79167	133
8.80000	133
8.80833	133
8.81667	132
8.82500	131
8.83333	131
8.84167	131
8.85000	131
8.85833	131
8.86667	130
8.87500	129
8.88333	128
8.89167	128
8.90000	129
8.90833	129
8.91667	128
8.92500	127
8.93333	127
8.94167	126
8.95000	126
8.95833	125
8.96667	124
8.97500	123
8.98333	122
8.99167	123
9.00000	123
9.00833	122
9.01667	122
9.02500	121
9.03333	122
9.04167	121
9.05000	119
9.05833	117
9.06667	116
9.07500	116
9.08333	115
9.09167	113
9.10000	113
9.10833	113
9.11667	112
9.12500	111
9.13333	110
9.14167	109
9.15000	110
9.15833	110
9.16667	110
9.17500	109
9.18333	108
9.19167	107
9.20000	106
9.20833	106
9.21667	106
9.22500	105
9.23333	105
9.24167	104
9.25000	104
9.25833	104
9.26667	104
9.27500	103
9.28333	102
9.29167	101
9.30000	101
9.30833	100
9.31667	99
9.32500	98
9.33333	98
9.34167	99
9.35000	99
9.35833	99
9.36667	99
9.37500	98
9.38333	96
9.39167	95
9.40000	94
9.40833	92
9.41667	92
9.42500	92
9.43333	91
9.44167	89
9.45000	88
9.45833	87
9.46667	86
9.47500	85
9.48333	85
9.49167	85
9.50000	85
9.50833	84
9.51667	83
9.52500	82
9.53333	81
9.54167	81
9.55000	80
9.55833	79
9.56667	79
9.57500	79
9.58333	80
9.59167	81
9.60000	81
9.60833	79
9.61667	78
9.62500	77
9.63333	76
9.64167	77
9.65000	76
9.65833	74
9.66667	74
9.67500	75
9.68333	75
9.69167	73
9.70000	72
9.70833	72
9.71667	73
9.72500	72
9.73333	71
9.74167	70
9.75000	70
9.75833	69
9.76667	69
9.77500	69
9.78333	70
9.79167	70
9.80000	70
9.80833	69
9.81667	69
9.82500	68
9.83333	67
9.84167	66
9.85000	66
9.85833	66
9.86667	66
9.87500	66
9.88333	65
9.89167	65
9.90000	65
9.90833	63
9.91667	63
9.92500	62
9.93333	61
9.94167	61
9.95000	62
9.95833	61
9.96667	62
9.97500	62
9.98333	62
9.99167	63
10.00000	63








